Folder: python_tutorial_for_chemistry

Note: commends.txt
# if is the first time using conda, run to initialise conda
conda init --all

# create a conda envrionment named demo
conda create -n demopython=3.10 

# open the new environment
conda activate demo

# install all packages will be used in this tutorial
pip install -r requirements.txt

# run a python file
python example1.py

File: python_workshop_TGA.csv
Time,Temperature,Weight,Balance_Flow,Sample_Flow
0.02500000,20.12025,7.891631,39.98718,59.99124
1.341667,22.15375,7.868224,40.00306,59.99738
2.658333,24.72371,7.836649,39.99840,59.99604
3.975000,27.31781,7.800630,40.00287,60.00789
5.291666,29.93600,7.759568,39.99874,59.99972
6.608332,32.56678,7.714520,39.98594,59.99592
7.925000,35.19958,7.670774,39.99661,60.00042
9.241668,37.83340,7.634980,39.99561,60.01040
10.55834,40.46372,7.607688,39.99258,59.99789
11.87500,43.09326,7.585860,39.99948,60.00098
13.19167,45.72211,7.568372,40.00642,60.00782
14.50833,48.35158,7.553238,40.00291,60.00736
15.82500,50.97512,7.540985,40.00496,60.00305
17.14166,53.61186,7.530018,39.99883,60.00616
18.45834,56.25601,7.519684,39.99103,59.99356
19.77500,58.88676,7.510978,40.00025,59.99895
21.09167,61.52276,7.503244,40.00667,60.00614
22.40833,64.14750,7.495313,39.99630,59.99700
23.72500,66.78193,7.488376,40.00922,60.01644
25.04166,69.41381,7.482422,39.99658,60.01372
26.35834,72.05126,7.476391,39.98942,60.00951
27.67500,74.68234,7.470690,39.99390,60.00725
28.99166,77.31894,7.465205,39.99076,59.98878
30.30833,79.94897,7.460693,39.99974,59.99838
31.62500,82.57570,7.455520,40.00271,59.99809
32.94166,85.20564,7.450574,40.00310,60.01106
34.25834,87.84195,7.445189,40.00452,59.98802
35.57500,90.47594,7.440354,39.99400,59.99263
36.89166,93.11603,7.434945,39.98756,60.00238
38.20833,95.74863,7.429053,39.98948,60.00094
39.52500,98.37838,7.423142,39.99602,59.98311
40.84167,101.0054,7.416444,40.00530,60.00262
42.15833,103.6398,7.410560,40.00932,59.99707
43.47500,106.2691,7.402500,40.01080,59.98270
44.79167,108.9128,7.395256,40.02118,59.99773
46.10834,111.5439,7.386578,39.99695,59.99966
47.42500,114.1817,7.378220,39.99882,59.98718
48.74166,116.7997,7.368008,40.00168,59.99863
50.05834,119.4410,7.358462,40.01103,59.99336
51.37500,122.0754,7.348194,39.99875,60.00045
52.69166,124.7073,7.336956,39.99942,60.00522
54.00834,127.3365,7.325268,40.00801,59.99812
55.32500,129.9761,7.312653,40.00832,60.00328
56.64168,132.6074,7.299008,40.00002,59.99722
57.95832,135.2334,7.285825,39.98780,59.99998
59.27500,137.8735,7.271338,39.99878,60.00181
60.59168,140.5042,7.256091,40.00156,59.98493
61.90832,143.1351,7.240924,40.00380,59.99930
63.22500,145.7706,7.224805,40.01284,60.00210
64.54166,148.4077,7.209563,40.00834,59.99918
65.85832,151.0430,7.193312,40.00228,59.99500
67.17500,153.6699,7.176850,39.99036,59.99732
68.49168,156.2998,7.160720,39.99047,60.01246
69.80834,158.9299,7.143238,39.98694,59.99484
71.12500,161.5687,7.126134,40.00520,59.99683
72.44166,164.2051,7.108235,39.99817,60.00111
73.75832,166.8371,7.090850,39.99997,59.99415
75.07500,169.4696,7.074040,40.00224,59.99829
76.39168,172.1028,7.056182,39.98906,60.02031
77.70834,174.7318,7.038290,39.99864,59.99459
79.02500,177.3629,7.020405,39.98806,59.99695
80.34168,179.9960,7.002271,39.99314,59.99714
81.65832,182.6349,6.984540,39.99856,60.01152
82.97500,185.2690,6.966505,40.00161,60.01208
84.29166,187.8932,6.948391,39.99674,59.97994
85.60832,190.5271,6.929459,39.99284,60.00783
86.92500,193.1607,6.910478,39.99294,59.99436
88.24168,195.7931,6.891184,39.99440,59.98270
89.55834,198.4304,6.872612,39.98980,59.97988
90.87500,201.0673,6.853378,39.99690,59.98944
92.19166,203.6961,6.833866,39.99236,59.99006
93.50832,206.3316,6.814654,39.99953,59.99616
94.82500,208.9598,6.794656,40.00538,60.00836
96.14168,211.5932,6.775420,40.00926,60.00219
97.45834,214.2274,6.755447,39.99998,60.00193
98.77500,216.8614,6.735526,40.00718,59.99418
100.0917,219.4968,6.715568,39.99461,59.99868
101.4083,222.1303,6.696470,40.00903,59.98860
102.7250,224.7594,6.676901,40.00096,59.99988
104.0417,227.3973,6.658172,40.00052,59.98796
105.3583,230.0201,6.638347,40.00623,59.99496
106.6750,232.7008,6.620144,40.00200,60.00594
107.9917,235.2713,6.602349,39.99385,59.98781
109.3084,237.9276,6.584547,39.99893,59.98320
110.6250,240.5646,6.567662,40.00693,60.00598
111.9416,243.1940,6.551010,40.00698,59.99851
113.2583,245.8284,6.534810,40.00141,60.01158
114.5750,248.4611,6.520918,40.00414,60.00187
115.8917,251.0819,6.505028,39.99510,60.00260
117.2084,253.7758,6.491609,39.99882,60.00030
118.5250,256.3587,6.478797,40.00037,60.00840
119.8416,259.0004,6.467457,39.99528,59.99272
121.1584,261.6266,6.456562,40.00283,60.01382
122.4750,264.2514,6.446349,39.99520,60.00168
123.7916,266.9309,6.438101,40.00300,60.00868
125.1083,269.5128,6.430226,39.99475,60.00192
126.4250,272.1660,6.421368,39.99083,59.99951
127.7417,274.7865,6.414139,39.99512,59.99212
129.0584,277.4242,6.407714,40.00490,60.00476
130.3750,280.0500,6.403218,40.00220,60.00438
131.6916,282.6834,6.395766,40.01024,60.00732
133.0083,285.3044,6.388610,40.00451,59.99992
134.3250,287.9622,6.384407,39.99985,60.00139
135.6416,290.5888,6.379000,39.99414,60.00360
136.9583,293.1966,6.376804,39.99794,60.00588
138.2750,295.8309,6.371894,40.00343,59.99521
139.5916,298.4863,6.367498,40.00450,59.98960
140.9084,301.1162,6.364269,40.00148,60.00178
142.2250,303.7656,6.359006,40.00178,59.99980
143.5417,306.3918,6.356283,40.01072,59.99922
144.8584,309.0198,6.352422,39.99426,59.99830
146.1750,311.6552,6.350506,39.99810,60.00816
147.4917,314.2906,6.346560,39.99940,59.99557
148.8084,316.9182,6.343289,39.99985,59.99187
150.1250,319.5428,6.340590,40.00408,59.99887
151.4416,322.1818,6.337101,40.01143,60.00391
152.7583,324.8285,6.335113,39.99818,59.98921
154.0750,327.4524,6.330002,39.99902,59.99679
155.3916,330.0956,6.327642,40.00174,60.00739
156.7083,332.7253,6.324350,39.99201,60.00440
158.0250,335.3590,6.319433,39.99672,60.00535
159.3416,337.9812,6.315910,40.01007,60.00694
160.6584,340.6164,6.313136,40.01194,60.00265
161.9750,343.2488,6.308579,40.00385,59.99928
163.2917,345.8893,6.306404,40.01202,60.00945
164.6084,348.5205,6.300290,39.99937,59.98895
165.9250,351.1524,6.297387,39.99754,60.00266
167.2417,353.7824,6.294224,39.99081,59.99700
168.5584,356.4389,6.286995,39.98536,60.00485
169.8750,359.0660,6.281284,40.00234,60.00370
171.1916,361.6864,6.275821,40.00872,60.00796
172.5083,364.3179,6.269711,39.99825,60.01043
173.8250,366.9502,6.262261,40.00638,59.99851
175.1416,369.5960,6.254880,39.99095,59.99106
176.4583,372.2076,6.245206,39.99454,60.00861
177.7750,374.8544,6.236880,40.00580,60.00166
179.0916,377.4797,6.225953,40.00637,60.01168
180.4084,380.1228,6.214568,40.00572,60.00300
181.7250,382.7543,6.202876,40.00600,60.02024
183.0417,385.3824,6.186070,40.00366,60.00174
184.3584,388.0339,6.172088,39.99958,59.99090
185.6750,390.6521,6.152572,40.00150,60.00729
186.9917,393.2738,6.133295,39.99130,59.99416
188.3084,395.9226,6.108750,39.99394,60.00400
189.6250,398.5517,6.080460,40.00546,60.00449
190.9416,401.1830,6.048588,40.00884,59.99860
192.2583,403.8265,6.014290,40.01332,59.99798
193.5750,406.4480,5.976370,40.00472,59.99657
194.8916,409.0922,5.937650,39.99340,59.99694
196.2083,411.7163,5.896312,40.00016,60.00124
197.5250,414.3637,5.856039,39.99731,59.98780
198.8416,416.9874,5.811925,40.01035,60.01704
200.1584,419.6256,5.773194,40.00210,60.00442
201.4750,422.2515,5.735330,40.01378,60.01356
202.7917,424.9003,5.702182,39.99231,60.00480
204.1084,427.5264,5.667605,39.99568,60.00684
205.4250,430.1628,5.638252,39.99524,60.00586
206.7417,432.8626,5.609168,39.99422,59.99282
208.0583,435.4215,5.579572,39.99340,60.00890
209.3750,438.0572,5.554296,40.00212,59.99358
210.6917,440.6918,5.528932,40.00424,60.00457
212.0083,443.3220,5.507234,40.00902,60.01462
213.3250,445.9000,5.487054,40.00378,60.00174
214.6416,448.5962,5.469602,39.99135,60.00432
215.9583,451.2180,5.449078,39.99832,59.99389
217.2750,453.8534,5.428418,39.99550,59.99920
218.5916,456.4988,5.405628,40.00684,59.99668
219.9084,459.1320,5.380742,40.00436,60.00202
221.2250,461.7594,5.351132,40.00784,59.99580
222.5417,464.3933,5.316550,39.99787,60.00835
223.8584,467.0354,5.278336,39.99896,60.00962
225.1750,469.6700,5.233053,39.99717,60.00778
226.4917,472.2926,5.177609,39.99037,60.00115
227.8083,474.9297,5.115696,40.00160,60.01118
229.1250,477.5559,5.039695,40.00473,59.99810
230.4417,480.2105,4.952447,40.01170,59.99922
231.7583,482.8309,4.848637,40.00376,60.00144
233.0750,485.5116,4.729568,39.99490,60.00072
234.3916,488.1010,4.593909,40.00468,60.00076
235.7083,490.7272,4.444400,39.99948,59.99639
237.0250,493.3713,4.284509,39.99334,59.98682
238.3416,496.0250,4.121921,39.99489,59.99566
239.6584,498.6288,3.964080,40.00655,60.00543
240.9750,501.2695,3.822509,39.99626,59.99617
242.2917,503.8968,3.700636,40.00010,59.99652
243.6084,506.5366,3.606816,40.00383,59.99503
244.9250,509.1746,3.533330,39.99315,59.99816
246.2417,511.8092,3.480072,39.99602,60.01602
247.5583,514.4334,3.439654,40.00550,59.99938
248.8750,517.0690,3.408496,40.00261,60.00008
250.1917,519.7016,3.382805,40.00190,59.98482
251.5083,522.3350,3.363659,40.00390,60.00029
252.8250,524.9711,3.345847,40.00780,60.00242
254.1416,527.6071,3.331985,39.99218,59.99711
255.4583,530.2399,3.317744,39.99963,60.00946
256.7750,532.8695,3.305183,39.99612,59.99487
258.0917,535.5082,3.292431,39.99476,59.99832
259.4083,538.1407,3.280750,40.00813,60.00664
260.7250,540.7759,3.270532,40.00621,60.00026
262.0416,543.4092,3.259519,40.00319,59.99482
263.3584,546.0374,3.248219,40.00130,59.99320
264.6750,548.6789,3.238556,39.99270,59.99370
265.9917,551.2990,3.228146,39.99432,59.99623
267.3083,553.9418,3.216894,39.99831,59.99890
268.6250,556.5790,3.206763,40.00372,59.99816
269.9417,559.2102,3.195075,40.00971,60.00468
271.2583,561.8547,3.185544,40.00016,59.99910
272.5750,564.4784,3.175088,39.99985,59.99350
273.8916,567.1272,3.163342,39.98840,59.99098
275.2084,569.7443,3.153682,39.98803,60.00037
276.5250,572.3623,3.143230,39.99362,59.99995
277.8417,575.0049,3.135056,40.00003,59.98484
279.1583,577.6570,3.122447,40.00542,60.00060
280.4750,580.2720,3.112566,40.00727,60.00356
281.7916,582.9296,3.103506,40.00825,59.99782
283.1084,585.5606,3.093319,40.00156,59.99219
284.4250,588.1785,3.085483,40.00112,60.00880
285.7417,590.8146,3.076390,39.99024,60.00093
287.0583,593.4532,3.066800,39.99004,60.00506
288.3750,596.0847,3.059992,40.00487,59.99672
289.6917,598.7176,3.053444,40.00016,59.99885
289.9083,599.1457,3.049972,40.00386,60.00268